{"resourceType":"Bundle","type":"transaction","entry":[{"resource":{"resourceType":"Observation","id":"46c397fb7751e1a17b007b14f8396d66d0b40ae41900f92cf4bc1ecbbe5b3998","identifier":[{"system":"https://clinsight.csiro.au/fhir/CodeSystem/epcar-observation-id","value":"46c397fb7751e1a17b007b14f8396d66d0b40ae41900f92cf4bc1ecbbe5b3998"}],"basedOn":[{"reference":"ProcedureRequest/6ce8dbd17ece9d9e12170b42ad17c7008f3b8217df20a9429e1440846dc3f0a7"}],"code":{"coding":[{"system":"http://loinc.org","code":"8252-9","display":"Image"},{"system":"https://clinsight.csiro.au/fhir/CodeSystem/epcar-observation-code-pls","code":"Image"}]},"effectiveDateTime":"2018-05-15T22:53:38+10:00"},"request":{"method":"PUT","url":"Observation/46c397fb7751e1a17b007b14f8396d66d0b40ae41900f92cf4bc1ecbbe5b3998"}},{"resource":{"resourceType":"Observation","id":"fff5a77cdeb5b0c78483f862f28855644b6f7dee47c40171593483aacd8612b3","identifier":[{"system":"https://clinsight.csiro.au/fhir/CodeSystem/epcar-observation-id","value":"fff5a77cdeb5b0c78483f862f28855644b6f7dee47c40171593483aacd8612b3"}],"basedOn":[{"reference":"ProcedureRequest/6ce8dbd17ece9d9e12170b42ad17c7008f3b8217df20a9429e1440846dc3f0a7"}],"code":{"coding":[{"system":"https://clinsight.csiro.au/fhir/CodeSystem/epcar-observation-code-pls","code":"Fast","display":"Fasting Specimen"}]},"effectiveDateTime":"2018-05-15T20:18:42+10:00"},"request":{"method":"PUT","url":"Observation/fff5a77cdeb5b0c78483f862f28855644b6f7dee47c40171593483aacd8612b3"}},{"resource":{"resourceType":"Observation","id":"021329aa684eb0670f782d8c72c9e677ebe68410495803295a75098a7b85992e","identifier":[{"system":"https://clinsight.csiro.au/fhir/CodeSystem/epcar-observation-id","value":"021329aa684eb0670f782d8c72c9e677ebe68410495803295a75098a7b85992e"}],"basedOn":[{"reference":"ProcedureRequest/6ce8dbd17ece9d9e12170b42ad17c7008f3b8217df20a9429e1440846dc3f0a7"}],"code":{"coding":[{"system":"http://loinc.org","code":"2951-2","display":"Sodium"},{"system":"https://clinsight.csiro.au/fhir/CodeSystem/epcar-observation-code-pls","code":"Na"}]},"effectiveDateTime":"2018-05-15T21:00:06+10:00"},"request":{"method":"PUT","url":"Observation/021329aa684eb0670f782d8c72c9e677ebe68410495803295a75098a7b85992e"}},{"resource":{"resourceType":"Observation","id":"4f77e9b4492b201f5bc9f099e9840e8dc97797f7e6001ba805243106c61ca17d","identifier":[{"system":"https://clinsight.csiro.au/fhir/CodeSystem/epcar-observation-id","value":"4f77e9b4492b201f5bc9f099e9840e8dc97797f7e6001ba805243106c61ca17d"}],"basedOn":[{"reference":"ProcedureRequest/6ce8dbd17ece9d9e12170b42ad17c7008f3b8217df20a9429e1440846dc3f0a7"}],"code":{"coding":[{"system":"http://loinc.org","code":"2823-3","display":"Potassium"},{"system":"https://clinsight.csiro.au/fhir/CodeSystem/epcar-observation-code-pls","code":"K"}]},"effectiveDateTime":"2018-05-15T21:00:06+10:00"},"request":{"method":"PUT","url":"Observation/4f77e9b4492b201f5bc9f099e9840e8dc97797f7e6001ba805243106c61ca17d"}},{"resource":{"resourceType":"Observation","id":"fb68d8f477b47562aae3f6c9939b009267178cedb446f8670e5fe70dfb0375e6","identifier":[{"system":"https://clinsight.csiro.au/fhir/CodeSystem/epcar-observation-id","value":"fb68d8f477b47562aae3f6c9939b009267178cedb446f8670e5fe70dfb0375e6"}],"basedOn":[{"reference":"ProcedureRequest/6ce8dbd17ece9d9e12170b42ad17c7008f3b8217df20a9429e1440846dc3f0a7"}],"code":{"coding":[{"system":"http://loinc.org","code":"2075-0","display":"Chloride"},{"system":"https://clinsight.csiro.au/fhir/CodeSystem/epcar-observation-code-pls","code":"Cl"}]},"effectiveDateTime":"2018-05-15T21:00:06+10:00"},"request":{"method":"PUT","url":"Observation/fb68d8f477b47562aae3f6c9939b009267178cedb446f8670e5fe70dfb0375e6"}},{"resource":{"resourceType":"Observation","id":"44e4a36260c8efcef3f015e63695aae2393da098d836de37ecc7a0b2f329b6ef","identifier":[{"system":"https://clinsight.csiro.au/fhir/CodeSystem/epcar-observation-id","value":"44e4a36260c8efcef3f015e63695aae2393da098d836de37ecc7a0b2f329b6ef"}],"basedOn":[{"reference":"ProcedureRequest/6ce8dbd17ece9d9e12170b42ad17c7008f3b8217df20a9429e1440846dc3f0a7"}],"code":{"coding":[{"system":"http://loinc.org","code":"1963-8","display":"Bicarbonate"},{"system":"https://clinsight.csiro.au/fhir/CodeSystem/epcar-observation-code-pls","code":"TCO2"}]},"effectiveDateTime":"2018-05-15T21:00:06+10:00"},"request":{"method":"PUT","url":"Observation/44e4a36260c8efcef3f015e63695aae2393da098d836de37ecc7a0b2f329b6ef"}},{"resource":{"resourceType":"Observation","id":"b1cd3f97bcc5dfca2e9ee56acc1616b171fef3fb8f0f741e81b3b2496d11a39d","identifier":[{"system":"https://clinsight.csiro.au/fhir/CodeSystem/epcar-observation-id","value":"b1cd3f97bcc5dfca2e9ee56acc1616b171fef3fb8f0f741e81b3b2496d11a39d"}],"basedOn":[{"reference":"ProcedureRequest/6ce8dbd17ece9d9e12170b42ad17c7008f3b8217df20a9429e1440846dc3f0a7"}],"code":{"coding":[{"system":"http://loinc.org","code":"1863-0","display":"Anion Gap"},{"system":"https://clinsight.csiro.au/fhir/CodeSystem/epcar-observation-code-pls","code":"AnionGap"}]},"effectiveDateTime":"2018-05-15T21:00:06+10:00"},"request":{"method":"PUT","url":"Observation/b1cd3f97bcc5dfca2e9ee56acc1616b171fef3fb8f0f741e81b3b2496d11a39d"}},{"resource":{"resourceType":"Observation","id":"b60581a586772c89c79e92aa2e422583b9aa5add31e21c012a327b0b7592a82b","identifier":[{"system":"https://clinsight.csiro.au/fhir/CodeSystem/epcar-observation-id","value":"b60581a586772c89c79e92aa2e422583b9aa5add31e21c012a327b0b7592a82b"}],"basedOn":[{"reference":"ProcedureRequest/6ce8dbd17ece9d9e12170b42ad17c7008f3b8217df20a9429e1440846dc3f0a7"}],"code":{"coding":[{"system":"http://loinc.org","code":"22664-7","display":"Urea"},{"system":"https://clinsight.csiro.au/fhir/CodeSystem/epcar-observation-code-pls","code":"Urea"}]},"effectiveDateTime":"2018-05-15T21:00:06+10:00"},"request":{"method":"PUT","url":"Observation/b60581a586772c89c79e92aa2e422583b9aa5add31e21c012a327b0b7592a82b"}},{"resource":{"resourceType":"Observation","id":"567876af253a20d84c697261a24ff97198ae49b48f06770922fc71860fcec4a9","identifier":[{"system":"https://clinsight.csiro.au/fhir/CodeSystem/epcar-observation-id","value":"567876af253a20d84c697261a24ff97198ae49b48f06770922fc71860fcec4a9"}],"basedOn":[{"reference":"ProcedureRequest/6ce8dbd17ece9d9e12170b42ad17c7008f3b8217df20a9429e1440846dc3f0a7"}],"code":{"coding":[{"system":"http://loinc.org","code":"14682-9","display":"Creatinine"},{"system":"https://clinsight.csiro.au/fhir/CodeSystem/epcar-observation-code-pls","code":"Creat"}]},"effectiveDateTime":"2018-05-15T21:00:06+10:00"},"request":{"method":"PUT","url":"Observation/567876af253a20d84c697261a24ff97198ae49b48f06770922fc71860fcec4a9"}},{"resource":{"resourceType":"Observation","id":"c8b760d7ce24efffdff71dd1d69a5ab5d81c163873fbe0a3b8b086c983dbd0e6","identifier":[{"system":"https://clinsight.csiro.au/fhir/CodeSystem/epcar-observation-id","value":"c8b760d7ce24efffdff71dd1d69a5ab5d81c163873fbe0a3b8b086c983dbd0e6"}],"basedOn":[{"reference":"ProcedureRequest/6ce8dbd17ece9d9e12170b42ad17c7008f3b8217df20a9429e1440846dc3f0a7"}],"code":{"coding":[{"system":"http://loinc.org","code":"33914-3","display":"Est. GFR"},{"system":"https://clinsight.csiro.au/fhir/CodeSystem/epcar-observation-code-pls","code":"GFR"}]},"effectiveDateTime":"2018-05-15T21:00:06+10:00"},"request":{"method":"PUT","url":"Observation/c8b760d7ce24efffdff71dd1d69a5ab5d81c163873fbe0a3b8b086c983dbd0e6"}},{"resource":{"resourceType":"Observation","id":"79cd759217a692406fc415d71785deb693b4534bd5daa891ade776779dded889","identifier":[{"system":"https://clinsight.csiro.au/fhir/CodeSystem/epcar-observation-id","value":"79cd759217a692406fc415d71785deb693b4534bd5daa891ade776779dded889"}],"basedOn":[{"reference":"ProcedureRequest/6ce8dbd17ece9d9e12170b42ad17c7008f3b8217df20a9429e1440846dc3f0a7"}],"code":{"coding":[{"system":"http://loinc.org","code":"14749-6","display":"Glucose"},{"system":"https://clinsight.csiro.au/fhir/CodeSystem/epcar-observation-code-pls","code":"Glu"}]},"effectiveDateTime":"2018-05-15T21:00:06+10:00"},"request":{"method":"PUT","url":"Observation/79cd759217a692406fc415d71785deb693b4534bd5daa891ade776779dded889"}},{"resource":{"resourceType":"Observation","id":"09de18f9d7c4ee8d6c1d0da12233e848b43e3c5b3f0357ad321693800e14c24b","identifier":[{"system":"https://clinsight.csiro.au/fhir/CodeSystem/epcar-observation-id","value":"09de18f9d7c4ee8d6c1d0da12233e848b43e3c5b3f0357ad321693800e14c24b"}],"basedOn":[{"reference":"ProcedureRequest/6ce8dbd17ece9d9e12170b42ad17c7008f3b8217df20a9429e1440846dc3f0a7"}],"code":{"coding":[{"system":"http://loinc.org","code":"18182-6","display":"Osmo-calc"},{"system":"https://clinsight.csiro.au/fhir/CodeSystem/epcar-observation-code-pls","code":"CalcOsmo"}]},"effectiveDateTime":"2018-05-15T21:00:06+10:00"},"request":{"method":"PUT","url":"Observation/09de18f9d7c4ee8d6c1d0da12233e848b43e3c5b3f0357ad321693800e14c24b"}},{"resource":{"resourceType":"Observation","id":"f08db03a2999f36c5c2ea9b38f90ff033b9ee3484b55542a51a96c451a350aae","identifier":[{"system":"https://clinsight.csiro.au/fhir/CodeSystem/epcar-observation-id","value":"f08db03a2999f36c5c2ea9b38f90ff033b9ee3484b55542a51a96c451a350aae"}],"basedOn":[{"reference":"ProcedureRequest/6ce8dbd17ece9d9e12170b42ad17c7008f3b8217df20a9429e1440846dc3f0a7"}],"code":{"coding":[{"system":"http://loinc.org","code":"14631-6","display":"Total Bilirubin"},{"system":"https://clinsight.csiro.au/fhir/CodeSystem/epcar-observation-code-pls","code":"TBil"}]},"effectiveDateTime":"2018-05-15T21:00:06+10:00"},"request":{"method":"PUT","url":"Observation/f08db03a2999f36c5c2ea9b38f90ff033b9ee3484b55542a51a96c451a350aae"}},{"resource":{"resourceType":"Observation","id":"61ecba69284c537c890e60d96987ca56ba67a0260a3be6c6d08f3c7cb3d5a7e9","identifier":[{"system":"https://clinsight.csiro.au/fhir/CodeSystem/epcar-observation-id","value":"61ecba69284c537c890e60d96987ca56ba67a0260a3be6c6d08f3c7cb3d5a7e9"}],"basedOn":[{"reference":"ProcedureRequest/6ce8dbd17ece9d9e12170b42ad17c7008f3b8217df20a9429e1440846dc3f0a7"}],"code":{"coding":[{"system":"http://loinc.org","code":"1742-6","display":"ALT"},{"system":"https://clinsight.csiro.au/fhir/CodeSystem/epcar-observation-code-pls","code":"ALT"}]},"effectiveDateTime":"2018-05-15T21:00:06+10:00"},"request":{"method":"PUT","url":"Observation/61ecba69284c537c890e60d96987ca56ba67a0260a3be6c6d08f3c7cb3d5a7e9"}},{"resource":{"resourceType":"Observation","id":"ee9f5f8bcb0e81b521c053be29cbdac4b997afc3b5765bacab8297df780ce0b2","identifier":[{"system":"https://clinsight.csiro.au/fhir/CodeSystem/epcar-observation-id","value":"ee9f5f8bcb0e81b521c053be29cbdac4b997afc3b5765bacab8297df780ce0b2"}],"basedOn":[{"reference":"ProcedureRequest/6ce8dbd17ece9d9e12170b42ad17c7008f3b8217df20a9429e1440846dc3f0a7"}],"code":{"coding":[{"system":"http://loinc.org","code":"6768-6","display":"ALKP"},{"system":"https://clinsight.csiro.au/fhir/CodeSystem/epcar-observation-code-pls","code":"ALP"}]},"effectiveDateTime":"2018-05-15T21:00:06+10:00"},"request":{"method":"PUT","url":"Observation/ee9f5f8bcb0e81b521c053be29cbdac4b997afc3b5765bacab8297df780ce0b2"}},{"resource":{"resourceType":"Observation","id":"5c47eda29ecf93eca0b42687c989708644bc812bc483f5ef4b34eb2991653adb","identifier":[{"system":"https://clinsight.csiro.au/fhir/CodeSystem/epcar-observation-id","value":"5c47eda29ecf93eca0b42687c989708644bc812bc483f5ef4b34eb2991653adb"}],"basedOn":[{"reference":"ProcedureRequest/6ce8dbd17ece9d9e12170b42ad17c7008f3b8217df20a9429e1440846dc3f0a7"}],"code":{"coding":[{"system":"http://loinc.org","code":"2324-2","display":"GGT (New)"},{"system":"https://clinsight.csiro.au/fhir/CodeSystem/epcar-observation-code-pls","code":"GGT2New"}]},"effectiveDateTime":"2018-05-15T21:00:06+10:00"},"request":{"method":"PUT","url":"Observation/5c47eda29ecf93eca0b42687c989708644bc812bc483f5ef4b34eb2991653adb"}},{"resource":{"resourceType":"Observation","id":"98841d91f871ea26fc1b639b5765982db1e0509cbb48dc1bc77b352ab84b6be2","identifier":[{"system":"https://clinsight.csiro.au/fhir/CodeSystem/epcar-observation-id","value":"98841d91f871ea26fc1b639b5765982db1e0509cbb48dc1bc77b352ab84b6be2"}],"basedOn":[{"reference":"ProcedureRequest/6ce8dbd17ece9d9e12170b42ad17c7008f3b8217df20a9429e1440846dc3f0a7"}],"code":{"coding":[{"system":"http://loinc.org","code":"2885-2","display":"Total Protein"},{"system":"https://clinsight.csiro.au/fhir/CodeSystem/epcar-observation-code-pls","code":"TP"}]},"effectiveDateTime":"2018-05-15T21:00:06+10:00"},"request":{"method":"PUT","url":"Observation/98841d91f871ea26fc1b639b5765982db1e0509cbb48dc1bc77b352ab84b6be2"}},{"resource":{"resourceType":"Observation","id":"83fd569223041d828955c989a633749f7aa81307c8ed93739bd81ec43451812e","identifier":[{"system":"https://clinsight.csiro.au/fhir/CodeSystem/epcar-observation-id","value":"83fd569223041d828955c989a633749f7aa81307c8ed93739bd81ec43451812e"}],"basedOn":[{"reference":"ProcedureRequest/6ce8dbd17ece9d9e12170b42ad17c7008f3b8217df20a9429e1440846dc3f0a7"}],"code":{"coding":[{"system":"http://loinc.org","code":"1751-7","display":"Albumin"},{"system":"https://clinsight.csiro.au/fhir/CodeSystem/epcar-observation-code-pls","code":"Alb"}]},"effectiveDateTime":"2018-05-15T21:00:06+10:00"},"request":{"method":"PUT","url":"Observation/83fd569223041d828955c989a633749f7aa81307c8ed93739bd81ec43451812e"}},{"resource":{"resourceType":"Observation","id":"b7964fe1fd856ba83eefd11692fb289439a95c83151a401e85c59e0fce91c06f","identifier":[{"system":"https://clinsight.csiro.au/fhir/CodeSystem/epcar-observation-id","value":"b7964fe1fd856ba83eefd11692fb289439a95c83151a401e85c59e0fce91c06f"}],"basedOn":[{"reference":"ProcedureRequest/6ce8dbd17ece9d9e12170b42ad17c7008f3b8217df20a9429e1440846dc3f0a7"}],"code":{"coding":[{"system":"http://loinc.org","code":"10834-0","display":"Globulin"},{"system":"https://clinsight.csiro.au/fhir/CodeSystem/epcar-observation-code-pls","code":"Glob"}]},"effectiveDateTime":"2018-05-15T21:00:06+10:00"},"request":{"method":"PUT","url":"Observation/b7964fe1fd856ba83eefd11692fb289439a95c83151a401e85c59e0fce91c06f"}},{"resource":{"resourceType":"Observation","id":"d6c6fc890bab29b408728a6edf973e3e12c26f252395c838768988da35b6c5a5","identifier":[{"system":"https://clinsight.csiro.au/fhir/CodeSystem/epcar-observation-id","value":"d6c6fc890bab29b408728a6edf973e3e12c26f252395c838768988da35b6c5a5"}],"basedOn":[{"reference":"ProcedureRequest/6ce8dbd17ece9d9e12170b42ad17c7008f3b8217df20a9429e1440846dc3f0a7"}],"code":{"coding":[{"system":"http://loinc.org","code":"1988-5","display":"CRP"},{"system":"https://clinsight.csiro.au/fhir/CodeSystem/epcar-observation-code-pls","code":"CRP"}]},"effectiveDateTime":"2018-05-15T21:00:06+10:00"},"request":{"method":"PUT","url":"Observation/d6c6fc890bab29b408728a6edf973e3e12c26f252395c838768988da35b6c5a5"}},{"resource":{"resourceType":"Observation","id":"73fff89a452dea43267552a4e2af99161e5f631865258d0ff96f462b036ef8c0","identifier":[{"system":"https://clinsight.csiro.au/fhir/CodeSystem/epcar-observation-id","value":"73fff89a452dea43267552a4e2af99161e5f631865258d0ff96f462b036ef8c0"}],"basedOn":[{"reference":"ProcedureRequest/6ce8dbd17ece9d9e12170b42ad17c7008f3b8217df20a9429e1440846dc3f0a7"}],"code":{"coding":[{"system":"http://loinc.org","code":"46424-8","display":"Haemolysis Index"},{"system":"https://clinsight.csiro.au/fhir/CodeSystem/epcar-observation-code-pls","code":"Haem"}]},"effectiveDateTime":"2018-05-15T21:00:06+10:00"},"request":{"method":"PUT","url":"Observation/73fff89a452dea43267552a4e2af99161e5f631865258d0ff96f462b036ef8c0"}},{"resource":{"resourceType":"Observation","id":"528e6b3f58b8f93b7e4d47daa37fe8ae6cb2ee43fc61990f1e6a429d6f80594a","identifier":[{"system":"https://clinsight.csiro.au/fhir/CodeSystem/epcar-observation-id","value":"528e6b3f58b8f93b7e4d47daa37fe8ae6cb2ee43fc61990f1e6a429d6f80594a"}],"basedOn":[{"reference":"ProcedureRequest/6ce8dbd17ece9d9e12170b42ad17c7008f3b8217df20a9429e1440846dc3f0a7"}],"code":{"coding":[{"system":"https://clinsight.csiro.au/fhir/CodeSystem/epcar-observation-code-pls","code":"GFRCom","display":"Est GFR  Comment"}]},"effectiveDateTime":"2018-05-15T21:00:10+10:00"},"request":{"method":"PUT","url":"Observation/528e6b3f58b8f93b7e4d47daa37fe8ae6cb2ee43fc61990f1e6a429d6f80594a"}},{"resource":{"resourceType":"Observation","id":"069adf690b3b0e33d6247551919f3ee8cec2fe58b781a4cc7002042005b6a65a","identifier":[{"system":"https://clinsight.csiro.au/fhir/CodeSystem/epcar-observation-id","value":"069adf690b3b0e33d6247551919f3ee8cec2fe58b781a4cc7002042005b6a65a"}],"basedOn":[{"reference":"ProcedureRequest/6ce8dbd17ece9d9e12170b42ad17c7008f3b8217df20a9429e1440846dc3f0a7"}],"code":{"coding":[{"system":"https://clinsight.csiro.au/fhir/CodeSystem/epcar-observation-code-pls","code":"GluCom","display":"Gen Gluc Comment"}]},"effectiveDateTime":"2018-05-15T21:00:10+10:00"},"request":{"method":"PUT","url":"Observation/069adf690b3b0e33d6247551919f3ee8cec2fe58b781a4cc7002042005b6a65a"}},{"resource":{"resourceType":"Observation","id":"dfdbd7cdb9543c75703ce3002fd754dde96b2f775988e80bfcac89940d2eb204","identifier":[{"system":"https://clinsight.csiro.au/fhir/CodeSystem/epcar-observation-id","value":"dfdbd7cdb9543c75703ce3002fd754dde96b2f775988e80bfcac89940d2eb204"}],"basedOn":[{"reference":"ProcedureRequest/6ce8dbd17ece9d9e12170b42ad17c7008f3b8217df20a9429e1440846dc3f0a7"}],"code":{"coding":[{"system":"https://clinsight.csiro.au/fhir/CodeSystem/epcar-observation-code-pls","code":"TestChng","display":"Test Change Comment"}]},"effectiveDateTime":"2018-05-15T21:00:10+10:00"},"request":{"method":"PUT","url":"Observation/dfdbd7cdb9543c75703ce3002fd754dde96b2f775988e80bfcac89940d2eb204"}},{"resource":{"resourceType":"Observation","id":"df851ab42692cbffb8b3b9e810ca6776d7af58e4cebf908697420dee8dac2789","identifier":[{"system":"https://clinsight.csiro.au/fhir/CodeSystem/epcar-observation-id","value":"df851ab42692cbffb8b3b9e810ca6776d7af58e4cebf908697420dee8dac2789"}],"basedOn":[{"reference":"ProcedureRequest/6ce8dbd17ece9d9e12170b42ad17c7008f3b8217df20a9429e1440846dc3f0a7"}],"code":{"coding":[{"system":"https://clinsight.csiro.au/fhir/CodeSystem/epcar-observation-code-pls","code":"ARRICom","display":"Age Related Reference Interval Comment"}]},"effectiveDateTime":"2018-05-15T21:00:10+10:00"},"request":{"method":"PUT","url":"Observation/df851ab42692cbffb8b3b9e810ca6776d7af58e4cebf908697420dee8dac2789"}},{"resource":{"resourceType":"ProcedureRequest","id":"6ce8dbd17ece9d9e12170b42ad17c7008f3b8217df20a9429e1440846dc3f0a7","contained":[{"resourceType":"Encounter","id":"1","class":{"system":"http://somedomain.com/fhir/foobar","code":"BAR"},"location":[{"location":{"reference":"#2"}}]},{"resourceType":"Location","id":"2","name":"ED","partOf":{"reference":"#3"}},{"resourceType":"Location","id":"3","name":"TCH"}],"identifier":[{"system":"https://clinsight.csiro.au/fhir/CodeSystem/epcar-procedure-request-id","value":"6ce8dbd17ece9d9e12170b42ad17c7008f3b8217df20a9429e1440846dc3f0a7"}],"status":"completed","intent":"filler-order","code":{"coding":[{"system":"https://clinsight.csiro.au/fhir/CodeSystem/epcar-observation-code-pls","code":"CChem","display":"Routine Chemistry"}]},"context":{"reference":"#1"},"authoredOn":"2018-05-15T00:00:00+10:00"},"request":{"method":"PUT","url":"ProcedureRequest/6ce8dbd17ece9d9e12170b42ad17c7008f3b8217df20a9429e1440846dc3f0a7"}},{"resource":{"resourceType":"DiagnosticReport","id":"6274338ecf7b8dccb7e288b6d3fdc4f09f42eb65b6756f580d48fd64a650a256","identifier":[{"system":"https://clinsight.csiro.au/fhir/CodeSystem/epcar-diagnostic-report-id","value":"6274338ecf7b8dccb7e288b6d3fdc4f09f42eb65b6756f580d48fd64a650a256"}],"basedOn":[{"reference":"ProcedureRequest/6ce8dbd17ece9d9e12170b42ad17c7008f3b8217df20a9429e1440846dc3f0a7"}],"effectiveDateTime":"2018-05-15T20:10:00+10:00","result":[{"reference":"Observation/46c397fb7751e1a17b007b14f8396d66d0b40ae41900f92cf4bc1ecbbe5b3998"},{"reference":"Observation/fff5a77cdeb5b0c78483f862f28855644b6f7dee47c40171593483aacd8612b3"},{"reference":"Observation/021329aa684eb0670f782d8c72c9e677ebe68410495803295a75098a7b85992e"},{"reference":"Observation/4f77e9b4492b201f5bc9f099e9840e8dc97797f7e6001ba805243106c61ca17d"},{"reference":"Observation/fb68d8f477b47562aae3f6c9939b009267178cedb446f8670e5fe70dfb0375e6"},{"reference":"Observation/44e4a36260c8efcef3f015e63695aae2393da098d836de37ecc7a0b2f329b6ef"},{"reference":"Observation/b1cd3f97bcc5dfca2e9ee56acc1616b171fef3fb8f0f741e81b3b2496d11a39d"},{"reference":"Observation/b60581a586772c89c79e92aa2e422583b9aa5add31e21c012a327b0b7592a82b"},{"reference":"Observation/567876af253a20d84c697261a24ff97198ae49b48f06770922fc71860fcec4a9"},{"reference":"Observation/c8b760d7ce24efffdff71dd1d69a5ab5d81c163873fbe0a3b8b086c983dbd0e6"},{"reference":"Observation/79cd759217a692406fc415d71785deb693b4534bd5daa891ade776779dded889"},{"reference":"Observation/09de18f9d7c4ee8d6c1d0da12233e848b43e3c5b3f0357ad321693800e14c24b"},{"reference":"Observation/f08db03a2999f36c5c2ea9b38f90ff033b9ee3484b55542a51a96c451a350aae"},{"reference":"Observation/61ecba69284c537c890e60d96987ca56ba67a0260a3be6c6d08f3c7cb3d5a7e9"},{"reference":"Observation/ee9f5f8bcb0e81b521c053be29cbdac4b997afc3b5765bacab8297df780ce0b2"},{"reference":"Observation/5c47eda29ecf93eca0b42687c989708644bc812bc483f5ef4b34eb2991653adb"},{"reference":"Observation/98841d91f871ea26fc1b639b5765982db1e0509cbb48dc1bc77b352ab84b6be2"},{"reference":"Observation/83fd569223041d828955c989a633749f7aa81307c8ed93739bd81ec43451812e"},{"reference":"Observation/b7964fe1fd856ba83eefd11692fb289439a95c83151a401e85c59e0fce91c06f"},{"reference":"Observation/d6c6fc890bab29b408728a6edf973e3e12c26f252395c838768988da35b6c5a5"},{"reference":"Observation/73fff89a452dea43267552a4e2af99161e5f631865258d0ff96f462b036ef8c0"},{"reference":"Observation/528e6b3f58b8f93b7e4d47daa37fe8ae6cb2ee43fc61990f1e6a429d6f80594a"},{"reference":"Observation/069adf690b3b0e33d6247551919f3ee8cec2fe58b781a4cc7002042005b6a65a"},{"reference":"Observation/dfdbd7cdb9543c75703ce3002fd754dde96b2f775988e80bfcac89940d2eb204"},{"reference":"Observation/df851ab42692cbffb8b3b9e810ca6776d7af58e4cebf908697420dee8dac2789"}]},"request":{"method":"PUT","url":"DiagnosticReport/6274338ecf7b8dccb7e288b6d3fdc4f09f42eb65b6756f580d48fd64a650a256"}}]}